Folder: Virostek-Scrape/apns/split-apns

File: xrd
137-13-313-014
124-17-110-131
163-24-112-012
138-19-710-017
138-02-412-011
162-12-213-024
164-36-712-031
164-23-516-014
179-05-513-142
161-17-616-049
140-22-212-005
177-26-417-017
177-23-110-033
176-21-101-048
138-16-611-028
178-01-715-134
177-25-611-006
138-02-610-016
125-18-111-110
125-09-311-024
125-25-712-066
125-05-317-004
176-12-110-149
176-15-610-074
137-35-418-051
139-16-610-140
163-14-610-008
190-06-412-063
161-17-213-034
179-21-112-009
139-16-610-341
140-22-814-011
125-10-515-007
138-09-323-141
162-06-310-048
137-12-616-035
176-20-110-072
138-26-412-051
161-05-215-045
162-02-811-254
186-05-810-042
125-12-711-050
160-22-217-020
138-18-113-085
124-07-711-064
138-14-310-030
138-26-312-018
138-27-117-061
138-33-223-005
138-03-819-069
161-07-201-006
162-12-601-007
163-26-214-362
177-24-510-027
162-20-801-013
162-17-602-003
138-07-811-051
179-28-714-031
138-11-110-013
140-20-416-044
162-21-315-414
140-15-310-006
138-26-210-008
161-11-219-051
163-06-611-035
178-29-513-047
002-25-710-002
161-04-620-011
137-25-117-010
124-31-210-060
139-06-710-088
163-15-411-064
161-05-510-030
124-28-214-019
139-26-611-107
176-11-810-148
139-07-612-012
139-07-719-006
139-25-214-043
124-25-412-016
186-08-810-002
177-27-613-020
161-28-612-024
139-13-311-032
139-26-711-024
139-31-312-035
200-22-701-031
163-13-322-007
139-25-110-001
125-16-713-036
126-13-818-009
140-32-314-020
124-20-111-176
178-29-513-061
176-34-810-053
125-17-412-048
176-06-619-033
138-28-122-057
176-11-611-050
179-20-711-027
138-02-210-040
124-33-416-113
191-04-213-002
177-36-714-002
161-03-414-026
163-33-811-106
177-20-810-017
163-20-718-031
140-05-313-026
162-18-617-150
161-04-412-040
161-20-113-026
162-14-114-040
264-28-112-015
139-24-411-036
163-09-816-039
161-22-311-100
161-17-511-066
161-07-610-071
139-07-317-012
177-34-610-055
163-21-211-012
138-08-611-089
124-28-211-026
264-28-310-015
070-03-610-004
124-27-716-036
163-31-416-012
177-31-715-067
177-27-711-247
137-36-113-082
138-28-210-022
138-22-417-019
140-22-810-020
125-20-115-020
140-08-115-003
139-35-512-023
139-25-115-024
161-15-310-165
178-20-814-095
138-03-310-015
125-17-310-226
139-26-415-064
138-08-513-033
176-20-714-230
176-15-511-011
138-28-815-002
176-27-311-058
176-27-410-063
176-27-410-067
162-13-214-021
176-14-212-031
191-13-611-034
178-20-715-073
176-08-711-024
176-08-316-058
002-24-510-033
177-25-612-013
138-24-713-007
138-25-511-038
179-20-110-062
200-26-301-003
139-20-512-062
138-21-621-047
191-11-412-003
163-17-616-017
177-12-621-064
140-18-211-044
161-29-510-028
139-11-810-055
140-30-115-040
140-30-115-012
140-30-313-027
140-30-115-089
140-18-211-130
140-30-313-011
178-01-612-017
140-31-612-079
140-31-612-046
140-18-210-123
001-18-510-023
138-22-510-006
161-21-610-033
161-29-801-015
001-17-415-033
161-19-314-009
162-21-714-043
138-28-118-039
138-02-214-012
138-28-513-220
125-24-610-037
176-15-212-018
138-20-610-040
163-17-217-031
201-32-801-013
125-24-611-056
137-34-112-016
176-36-716-042
177-14-712-001
162-21-710-115
137-12-514-041
178-17-514-026
163-18-614-067
163-09-110-070
124-28-322-064
163-16-510-015
125-23-110-067
161-29-811-028
125-13-618-006
124-21-413-072
162-10-612-005
179-30-716-010
125-36-516-052
179-30-818-040
140-23-614-054
176-28-211-141
191-01-216-025
179-27-709-007
140-35-110-112
126-24-214-066
161-30-401-018
178-08-810-021
161-19-514-017
177-15-810-082
177-10-818-086
176-20-511-034
178-31-817-014
163-08-110-008
163-12-206-017
163-26-110-729
163-30-519-001
179-05-314-074
138-20-213-028
178-04-410-135
176-05-713-004
163-03-216-023
001-09-610-035
178-05-711-008
138-03-412-012
001-08-210-035
175-24-501-006
176-33-810-069
177-27-115-098
137-36-312-041
137-14-810-017
138-17-614-094
162-25-813-009
163-22-511-011
219-09-101-002
163-08-313-029
138-16-415-058